# Pbox    400.00  53 4095  0.0     0    1.0000 15.47982     6
# VJ4.2  pw (us)  pwr  pwrf  dres  dmf  dcyc   B1max (kHz)  Stype
# ---------------------------------------------------------------
# Pxsim 0.0004000 14848.3723 0.000 311688.0 0.0000000 0.0000000 0.00
# data: pw (s) B1max (Hz) status sw (Hz) T1 (s)   T2 (s) RDC (Hz)
# ---------------------------------------------------------------
# Pbox.inp data :
# ~~~~~~~~~~~~~~~~~~~~~~~~~~~Waves~~~~~~~~~~~~~~~~~~~~~~~~~~~~~~~~~~
#   shape   bw(/pw)   ofs  st  ph  fla  trev  d1  d2   d0   wrp  php
# ~~~~~~~~~~~~~~~~~~~~~~~~~~~~~~~~~~~~~~~~~~~~~~~~~~~~~~~~~~~~~~~~~~
# { wurst2i 51948/0.0004 }
#
# type      = r          mod       = n          dres      = n         
# steps     = n          stepsize  = n          attn      = i         
# refofs    = n          wrap      = n          sfrq      = n         
# sucyc     = d          reps      = 2          header    = y         
# bscor     = n          pad1      = n          pad2      = n         
# bsim      = n          T1        = n          T2        = n         
# rdc       = n          dcyc      = n          sw        = n         
#
# RF Calibration Data :  ref_pwr   = 57         ref_pw90  = 10.19
# ~~~~~~~~~~~~~~~~~~~~~
###
# ------------------- Shape data ------------------
# pwtot      = 0.0004000 (total pw, s)
# power      = 53 (power level, dB)
# pwrf       = 4095 (fine power)
# B1max      = 15.4798 (B1max, kHz)
# B1rms      = 9.0787 (B1[RMS], kHz)
# nptot      = 320 (total number of steps)
# stepsize   = 1.25 (length of a single step, us)
# maxamp     = 982.2 (max amplitude)
# ------------------------------------------------- 
#      phase      amplitude   length     gate 
# ------------------------------------------------- 
        0.00      1023.00      0.0        0
       0.000        0.000      1.0        0
      11.371        0.000      1.0        0
      23.096        0.000      1.0        0
      34.821        0.000      1.0        1
      46.546        0.523      1.0        1
      58.271        1.380      1.0        1
      69.996        2.426      1.0        1
      81.721        3.661      1.0        1
      93.446        5.084      1.0        1
     105.171        6.696      1.0        1
     116.896        8.496      1.0        1
     128.621       10.482      1.0        1
     140.346       12.655      1.0        1
     152.070       15.012      1.0        1
     163.795       17.554      1.0        1
     175.520       20.280      1.0        1
     187.244       23.187      1.0        1
     198.969       26.276      1.0        1
     210.693       29.544      1.0        1
     222.417       32.992      1.0        1
     234.141       36.617      1.0        1
     245.865       40.417      1.0        1
     257.588       44.392      1.0        1
     269.311       48.540      1.0        1
     281.034       52.859      1.0        1
     292.755       57.348      1.0        1
     304.476       62.005      1.0        1
     316.197       66.828      1.0        1
     327.916       71.815      1.0        1
     339.634       76.965      1.0        1
     351.351       82.274      1.0        1
       3.067       87.742      1.0        1
      14.781       93.366      1.0        1
      26.493       99.144      1.0        1
      38.203      105.074      1.0        1
      49.911      111.153      1.0        1
      61.616      117.379      1.0        1
      73.319      123.749      1.0        1
      85.018      130.262      1.0        1
      96.714      136.914      1.0        1
     108.406      143.704      1.0        1
     120.094      150.627      1.0        1
     131.777      157.683      1.0        1
     143.454      164.867      1.0        1
     155.127      172.178      1.0        1
     166.793      179.612      1.0        1
     178.452      187.166      1.0        1
     190.105      194.838      1.0        1
     201.749      202.625      1.0        1
     213.386      210.523      1.0        1
     225.013      218.529      1.0        1
     236.630      226.641      1.0        1
     248.237      234.855      1.0        1
     259.832      243.168      1.0        1
     271.415      251.577      1.0        1
     282.986      260.079      1.0        1
     294.542      268.669      1.0        1
     306.084      277.346      1.0        1
     317.610      286.105      1.0        1
     329.119      294.944      1.0        1
     340.610      303.858      1.0        1
     352.083      312.844      1.0        1
       3.535      321.899      1.0        1
      14.967      331.019      1.0        1
      26.376      340.201      1.0        1
      37.761      349.442      1.0        1
      49.121      358.736      1.0        1
      60.455      368.082      1.0        1
      71.762      377.475      1.0        1
      83.039      386.912      1.0        1
      94.285      396.389      1.0        1
     105.500      405.902      1.0        1
     116.681      415.448      1.0        1
     127.827      425.023      1.0        1
     138.935      434.623      1.0        1
     150.006      444.245      1.0        1
     161.036      453.884      1.0        1
     172.024      463.538      1.0        1
     182.968      473.201      1.0        1
     193.866      482.872      1.0        1
     204.717      492.545      1.0        1
     215.518      502.217      1.0        1
     226.268      511.885      1.0        1
     236.964      521.544      1.0        1
     247.605      531.191      1.0        1
     258.189      540.822      1.0        1
     268.712      550.433      1.0        1
     279.174      560.021      1.0        1
     289.572      569.582      1.0        1
     299.904      579.112      1.0        1
     310.168      588.608      1.0        1
     320.360      598.065      1.0        1
     330.480      607.480      1.0        1
     340.525      616.850      1.0        1
     350.492      626.171      1.0        1
       0.379      635.439      1.0        1
      10.184      644.650      1.0        1
      19.904      653.802      1.0        1
      29.538      662.890      1.0        1
      39.081      671.911      1.0        1
      48.533      680.862      1.0        1
      57.890      689.739      1.0        1
      67.150      698.538      1.0        1
      76.311      707.256      1.0        1
      85.369      715.890      1.0        1
      94.324      724.437      1.0        1
     103.171      732.892      1.0        1
     111.909      741.254      1.0        1
     120.535      749.518      1.0        1
     129.047      757.681      1.0        1
     137.442      765.741      1.0        1
     145.717      773.693      1.0        1
     153.870      781.536      1.0        1
     161.899      789.265      1.0        1
     169.801      796.879      1.0        1
     177.574      804.374      1.0        1
     185.215      811.746      1.0        1
     192.721      818.994      1.0        1
     200.091      826.114      1.0        1
     207.322      833.104      1.0        1
     214.412      839.961      1.0        1
     221.358      846.682      1.0        1
     228.158      853.265      1.0        1
     234.810      859.707      1.0        1
     241.311      866.006      1.0        1
     247.660      872.159      1.0        1
     253.853      878.163      1.0        1
     259.890      884.017      1.0        1
     265.768      889.719      1.0        1
     271.484      895.265      1.0        1
     277.037      900.654      1.0        1
     282.425      905.884      1.0        1
     287.646      910.952      1.0        1
     292.697      915.857      1.0        1
     297.578      920.597      1.0        1
     302.287      925.171      1.0        1
     306.821      929.575      1.0        1
     311.179      933.809      1.0        1
     315.360      937.870      1.0        1
     319.362      941.758      1.0        1
     323.183      945.471      1.0        1
     326.822      949.007      1.0        1
     330.277      952.366      1.0        1
     333.548      955.544      1.0        1
     336.634      958.543      1.0        1
     339.532      961.359      1.0        1
     342.242      963.993      1.0        1
     344.762      966.443      1.0        1
     347.093      968.708      1.0        1
     349.232      970.788      1.0        1
     351.180      972.681      1.0        1
     352.935      974.386      1.0        1
     354.497      975.904      1.0        1
     355.865      977.234      1.0        1
     357.038      978.374      1.0        1
     358.017      979.325      1.0        1
     358.800      980.087      1.0        1
     359.388      980.658      1.0        1
     359.779      981.039      1.0        1
     359.975      981.230      2.0        1
     359.779      981.039      1.0        1
     359.388      980.658      1.0        1
     358.800      980.087      1.0        1
     358.017      979.325      1.0        1
     357.038      978.374      1.0        1
     355.865      977.234      1.0        1
     354.497      975.904      1.0        1
     352.935      974.386      1.0        1
     351.180      972.681      1.0        1
     349.232      970.788      1.0        1
     347.093      968.708      1.0        1
     344.762      966.443      1.0        1
     342.242      963.993      1.0        1
     339.532      961.359      1.0        1
     336.634      958.543      1.0        1
     333.548      955.544      1.0        1
     330.277      952.366      1.0        1
     326.822      949.007      1.0        1
     323.183      945.471      1.0        1
     319.362      941.758      1.0        1
     315.360      937.870      1.0        1
     311.179      933.809      1.0        1
     306.821      929.575      1.0        1
     302.287      925.171      1.0        1
     297.578      920.597      1.0        1
     292.697      915.857      1.0        1
     287.646      910.952      1.0        1
     282.425      905.884      1.0        1
     277.037      900.654      1.0        1
     271.484      895.265      1.0        1
     265.768      889.719      1.0        1
     259.890      884.017      1.0        1
     253.853      878.163      1.0        1
     247.660      872.159      1.0        1
     241.311      866.006      1.0        1
     234.810      859.707      1.0        1
     228.158      853.265      1.0        1
     221.358      846.682      1.0        1
     214.412      839.961      1.0        1
     207.322      833.104      1.0        1
     200.091      826.114      1.0        1
     192.721      818.994      1.0        1
     185.215      811.746      1.0        1
     177.574      804.374      1.0        1
     169.801      796.879      1.0        1
     161.899      789.265      1.0        1
     153.870      781.536      1.0        1
     145.717      773.693      1.0        1
     137.442      765.741      1.0        1
     129.047      757.681      1.0        1
     120.535      749.518      1.0        1
     111.909      741.254      1.0        1
     103.171      732.892      1.0        1
      94.324      724.437      1.0        1
      85.369      715.890      1.0        1
      76.311      707.256      1.0        1
      67.150      698.538      1.0        1
      57.890      689.739      1.0        1
      48.533      680.862      1.0        1
      39.081      671.911      1.0        1
      29.538      662.890      1.0        1
      19.904      653.802      1.0        1
      10.184      644.650      1.0        1
       0.379      635.439      1.0        1
     350.492      626.171      1.0        1
     340.525      616.850      1.0        1
     330.480      607.480      1.0        1
     320.360      598.065      1.0        1
     310.168      588.608      1.0        1
     299.904      579.112      1.0        1
     289.572      569.582      1.0        1
     279.174      560.021      1.0        1
     268.712      550.433      1.0        1
     258.189      540.822      1.0        1
     247.605      531.191      1.0        1
     236.964      521.544      1.0        1
     226.268      511.885      1.0        1
     215.518      502.217      1.0        1
     204.717      492.545      1.0        1
     193.866      482.872      1.0        1
     182.968      473.201      1.0        1
     172.024      463.538      1.0        1
     161.036      453.884      1.0        1
     150.006      444.245      1.0        1
     138.935      434.623      1.0        1
     127.827      425.023      1.0        1
     116.681      415.448      1.0        1
     105.500      405.902      1.0        1
      94.285      396.389      1.0        1
      83.039      386.912      1.0        1
      71.762      377.475      1.0        1
      60.455      368.082      1.0        1
      49.121      358.736      1.0        1
      37.761      349.442      1.0        1
      26.376      340.201      1.0        1
      14.967      331.019      1.0        1
       3.535      321.899      1.0        1
     352.083      312.844      1.0        1
     340.610      303.858      1.0        1
     329.119      294.944      1.0        1
     317.610      286.105      1.0        1
     306.084      277.346      1.0        1
     294.542      268.669      1.0        1
     282.986      260.079      1.0        1
     271.415      251.577      1.0        1
     259.832      243.168      1.0        1
     248.237      234.855      1.0        1
     236.630      226.641      1.0        1
     225.013      218.529      1.0        1
     213.386      210.523      1.0        1
     201.749      202.625      1.0        1
     190.105      194.838      1.0        1
     178.452      187.166      1.0        1
     166.793      179.612      1.0        1
     155.127      172.178      1.0        1
     143.454      164.867      1.0        1
     131.777      157.683      1.0        1
     120.094      150.627      1.0        1
     108.406      143.704      1.0        1
      96.714      136.914      1.0        1
      85.018      130.262      1.0        1
      73.319      123.749      1.0        1
      61.616      117.379      1.0        1
      49.911      111.153      1.0        1
      38.203      105.074      1.0        1
      26.493       99.144      1.0        1
      14.781       93.366      1.0        1
       3.067       87.742      1.0        1
     351.351       82.274      1.0        1
     339.634       76.965      1.0        1
     327.916       71.815      1.0        1
     316.197       66.828      1.0        1
     304.476       62.005      1.0        1
     292.755       57.348      1.0        1
     281.034       52.859      1.0        1
     269.311       48.540      1.0        1
     257.588       44.392      1.0        1
     245.865       40.417      1.0        1
     234.141       36.617      1.0        1
     222.417       32.992      1.0        1
     210.693       29.544      1.0        1
     198.969       26.276      1.0        1
     187.244       23.187      1.0        1
     175.520       20.280      1.0        1
     163.795       17.554      1.0        1
     152.070       15.012      1.0        1
     140.346       12.655      1.0        1
     128.621       10.482      1.0        1
     116.896        8.496      1.0        1
     105.171        6.696      1.0        1
      93.446        5.084      1.0        1
      81.721        3.661      1.0        1
      69.996        2.426      1.0        1
      58.271        1.380      1.0        1
      46.546        0.523      1.0        1
      34.821        0.000      1.0        1
      23.096        0.000      1.0        0
      11.371        0.000      1.0        0
       0.000        0.000      1.0        0
