# Pbox    400.20  52 4095  0.0     0    1.0000 16.72840     6
# VJ4.2  pw (us)  pwr  pwrf  dres  dmf  dcyc   B1max (kHz)  Stype
# ---------------------------------------------------------------
# Pxsim 0.0004002 16078.9174 0.000 365673.2 0.0000000 0.0000000 0.00
# data: pw (s) B1max (Hz) status sw (Hz) T1 (s)   T2 (s) RDC (Hz)
# ---------------------------------------------------------------
# Pbox.inp data :
# ~~~~~~~~~~~~~~~~~~~~~~~~~~~Waves~~~~~~~~~~~~~~~~~~~~~~~~~~~~~~~~~~
#   shape   bw(/pw)   ofs  st  ph  fla  trev  d1  d2   d0   wrp  php
# ~~~~~~~~~~~~~~~~~~~~~~~~~~~~~~~~~~~~~~~~~~~~~~~~~~~~~~~~~~~~~~~~~~
# { wurst2i 60976/0.0004 }
#
# type      = r          mod       = n          dres      = n         
# steps     = n          stepsize  = n          attn      = i         
# refofs    = n          wrap      = n          sfrq      = n         
# sucyc     = d          reps      = 2          header    = y         
# bscor     = n          pad1      = n          pad2      = n         
# bsim      = n          T1        = n          T2        = n         
# rdc       = n          dcyc      = n          sw        = n         
#
# RF Calibration Data :  ref_pwr   = 55         ref_pw90  = 10.58
# ~~~~~~~~~~~~~~~~~~~~~
###
# ------------------- Shape data ------------------
# pwtot      = 0.0004002 (total pw, s)
# power      = 52 (power level, dB)
# pwrf       = 4095 (fine power)
# B1max      = 16.7284 (B1max, kHz)
# B1rms      = 9.8323 (B1[RMS], kHz)
# nptot      = 348 (total number of steps)
# stepsize   = 1.15 (length of a single step, us)
# maxamp     = 984.2 (max amplitude)
# ------------------------------------------------- 
#      phase      amplitude   length     gate 
# ------------------------------------------------- 
        0.00      1023.00      0.0        0
       0.000        0.000      1.0        0
     121.981        0.000      1.0        0
     134.633        0.000      1.0        0
     147.285        0.000      1.0        1
     159.937        0.290      1.0        1
     172.589        1.016      1.0        1
     185.241        1.902      1.0        1
     197.893        2.948      1.0        1
     210.545        4.154      1.0        1
     223.197        5.520      1.0        1
     235.849        7.046      1.0        1
     248.501        8.730      1.0        1
     261.153       10.572      1.0        1
     273.805       12.572      1.0        1
     286.457       14.728      1.0        1
     299.109       17.041      1.0        1
     311.761       19.509      1.0        1
     324.413       22.132      1.0        1
     337.065       24.909      1.0        1
     349.716       27.838      1.0        1
       2.367       30.920      1.0        1
      15.019       34.152      1.0        1
      27.669       37.534      1.0        1
      40.320       41.065      1.0        1
      52.970       44.743      1.0        1
      65.620       48.568      1.0        1
      78.270       52.538      1.0        1
      90.918       56.652      1.0        1
     103.566       60.908      1.0        1
     116.214       65.305      1.0        1
     128.860       69.842      1.0        1
     141.506       74.517      1.0        1
     154.150       79.328      1.0        1
     166.793       84.275      1.0        1
     179.434       89.354      1.0        1
     192.074       94.566      1.0        1
     204.712       99.908      1.0        1
     217.348      105.378      1.0        1
     229.982      110.974      1.0        1
     242.613      116.695      1.0        1
     255.242      122.539      1.0        1
     267.867      128.503      1.0        1
     280.489      134.587      1.0        1
     293.107      140.787      1.0        1
     305.722      147.102      1.0        1
     318.331      153.530      1.0        1
     330.936      160.069      1.0        1
     343.536      166.717      1.0        1
     356.131      173.470      1.0        1
       8.719      180.328      1.0        1
      21.300      187.288      1.0        1
      33.874      194.347      1.0        1
      46.441      201.504      1.0        1
      59.000      208.755      1.0        1
      71.549      216.099      1.0        1
      84.089      223.534      1.0        1
      96.620      231.056      1.0        1
     109.139      238.663      1.0        1
     121.647      246.353      1.0        1
     134.142      254.124      1.0        1
     146.624      261.972      1.0        1
     159.093      269.895      1.0        1
     171.547      277.891      1.0        1
     183.985      285.956      1.0        1
     196.406      294.089      1.0        1
     208.810      302.287      1.0        1
     221.196      310.546      1.0        1
     233.562      318.865      1.0        1
     245.908      327.240      1.0        1
     258.232      335.669      1.0        1
     270.533      344.148      1.0        1
     282.810      352.676      1.0        1
     295.063      361.250      1.0        1
     307.288      369.866      1.0        1
     319.487      378.522      1.0        1
     331.656      387.214      1.0        1
     343.795      395.941      1.0        1
     355.903      404.699      1.0        1
       7.977      413.485      1.0        1
      20.017      422.297      1.0        1
      32.021      431.131      1.0        1
      43.987      439.985      1.0        1
      55.915      448.856      1.0        1
      67.802      457.741      1.0        1
      79.646      466.636      1.0        1
      91.447      475.540      1.0        1
     103.202      484.449      1.0        1
     114.910      493.359      1.0        1
     126.568      502.270      1.0        1
     138.176      511.176      1.0        1
     149.732      520.076      1.0        1
     161.232      528.967      1.0        1
     172.677      537.845      1.0        1
     184.063      546.707      1.0        1
     195.388      555.552      1.0        1
     206.652      564.375      1.0        1
     217.852      573.175      1.0        1
     228.985      581.947      1.0        1
     240.050      590.690      1.0        1
     251.045      599.400      1.0        1
     261.967      608.074      1.0        1
     272.815      616.711      1.0        1
     283.587      625.306      1.0        1
     294.279      633.857      1.0        1
     304.891      642.361      1.0        1
     315.420      650.816      1.0        1
     325.863      659.218      1.0        1
     336.219      667.565      1.0        1
     346.485      675.855      1.0        1
     356.659      684.083      1.0        1
       6.739      692.249      1.0        1
      16.723      700.349      1.0        1
      26.608      708.380      1.0        1
      36.392      716.339      1.0        1
      46.072      724.225      1.0        1
      55.647      732.035      1.0        1
      65.114      739.765      1.0        1
      74.471      747.414      1.0        1
      83.715      754.979      1.0        1
      92.845      762.458      1.0        1
     101.858      769.848      1.0        1
     110.751      777.146      1.0        1
     119.523      784.350      1.0        1
     128.171      791.458      1.0        1
     136.694      798.468      1.0        1
     145.087      805.377      1.0        1
     153.351      812.183      1.0        1
     161.481      818.884      1.0        1
     169.477      825.477      1.0        1
     177.335      831.961      1.0        1
     185.055      838.333      1.0        1
     192.632      844.591      1.0        1
     200.067      850.733      1.0        1
     207.355      856.757      1.0        1
     214.496      862.662      1.0        1
     221.488      868.444      1.0        1
     228.327      874.103      1.0        1
     235.013      879.637      1.0        1
     241.543      885.043      1.0        1
     247.916      890.320      1.0        1
     254.129      895.465      1.0        1
     260.181      900.479      1.0        1
     266.069      905.358      1.0        1
     271.793      910.101      1.0        1
     277.350      914.707      1.0        1
     282.739      919.175      1.0        1
     287.958      923.501      1.0        1
     293.005      927.686      1.0        1
     297.880      931.728      1.0        1
     302.579      935.626      1.0        1
     307.103      939.377      1.0        1
     311.449      942.982      1.0        1
     315.616      946.439      1.0        1
     319.603      949.746      1.0        1
     323.408      952.903      1.0        1
     327.031      955.909      1.0        1
     330.470      958.762      1.0        1
     333.725      961.462      1.0        1
     336.793      964.008      1.0        1
     339.674      966.398      1.0        1
     342.368      968.633      1.0        1
     344.872      970.711      1.0        1
     347.188      972.632      1.0        1
     349.313      974.395      1.0        1
     351.247      976.000      1.0        1
     352.989      977.446      1.0        1
     354.539      978.732      1.0        1
     355.897      979.859      1.0        1
     357.061      980.825      1.0        1
     358.032      981.631      1.0        1
     358.809      982.275      1.0        1
     359.392      982.759      1.0        1
     359.781      983.082      1.0        1
     359.976      983.243      2.0        1
     359.781      983.082      1.0        1
     359.392      982.759      1.0        1
     358.809      982.275      1.0        1
     358.032      981.631      1.0        1
     357.061      980.825      1.0        1
     355.897      979.859      1.0        1
     354.539      978.732      1.0        1
     352.989      977.446      1.0        1
     351.247      976.000      1.0        1
     349.313      974.395      1.0        1
     347.188      972.632      1.0        1
     344.872      970.711      1.0        1
     342.368      968.633      1.0        1
     339.674      966.398      1.0        1
     336.793      964.008      1.0        1
     333.725      961.462      1.0        1
     330.470      958.762      1.0        1
     327.031      955.909      1.0        1
     323.408      952.903      1.0        1
     319.603      949.746      1.0        1
     315.616      946.439      1.0        1
     311.449      942.982      1.0        1
     307.103      939.377      1.0        1
     302.579      935.626      1.0        1
     297.880      931.728      1.0        1
     293.005      927.686      1.0        1
     287.958      923.501      1.0        1
     282.739      919.175      1.0        1
     277.350      914.707      1.0        1
     271.793      910.101      1.0        1
     266.069      905.358      1.0        1
     260.181      900.479      1.0        1
     254.129      895.465      1.0        1
     247.916      890.320      1.0        1
     241.543      885.043      1.0        1
     235.013      879.637      1.0        1
     228.327      874.103      1.0        1
     221.488      868.444      1.0        1
     214.496      862.662      1.0        1
     207.355      856.757      1.0        1
     200.067      850.733      1.0        1
     192.632      844.591      1.0        1
     185.055      838.333      1.0        1
     177.335      831.961      1.0        1
     169.477      825.477      1.0        1
     161.481      818.884      1.0        1
     153.351      812.183      1.0        1
     145.087      805.377      1.0        1
     136.694      798.468      1.0        1
     128.171      791.458      1.0        1
     119.523      784.350      1.0        1
     110.751      777.146      1.0        1
     101.858      769.848      1.0        1
      92.845      762.458      1.0        1
      83.715      754.979      1.0        1
      74.471      747.414      1.0        1
      65.114      739.765      1.0        1
      55.647      732.035      1.0        1
      46.072      724.225      1.0        1
      36.392      716.339      1.0        1
      26.608      708.380      1.0        1
      16.723      700.349      1.0        1
       6.739      692.249      1.0        1
     356.659      684.083      1.0        1
     346.485      675.855      1.0        1
     336.219      667.565      1.0        1
     325.863      659.218      1.0        1
     315.420      650.816      1.0        1
     304.891      642.361      1.0        1
     294.279      633.857      1.0        1
     283.587      625.306      1.0        1
     272.815      616.711      1.0        1
     261.967      608.074      1.0        1
     251.045      599.400      1.0        1
     240.050      590.690      1.0        1
     228.985      581.947      1.0        1
     217.852      573.175      1.0        1
     206.652      564.375      1.0        1
     195.388      555.552      1.0        1
     184.063      546.707      1.0        1
     172.677      537.845      1.0        1
     161.232      528.967      1.0        1
     149.732      520.076      1.0        1
     138.176      511.176      1.0        1
     126.568      502.270      1.0        1
     114.910      493.359      1.0        1
     103.202      484.449      1.0        1
      91.447      475.540      1.0        1
      79.646      466.636      1.0        1
      67.802      457.741      1.0        1
      55.915      448.856      1.0        1
      43.987      439.985      1.0        1
      32.021      431.131      1.0        1
      20.017      422.297      1.0        1
       7.977      413.485      1.0        1
     355.903      404.699      1.0        1
     343.795      395.941      1.0        1
     331.656      387.214      1.0        1
     319.487      378.522      1.0        1
     307.288      369.866      1.0        1
     295.063      361.250      1.0        1
     282.810      352.676      1.0        1
     270.533      344.148      1.0        1
     258.232      335.669      1.0        1
     245.908      327.240      1.0        1
     233.562      318.865      1.0        1
     221.196      310.546      1.0        1
     208.810      302.287      1.0        1
     196.406      294.089      1.0        1
     183.985      285.956      1.0        1
     171.547      277.891      1.0        1
     159.093      269.895      1.0        1
     146.624      261.972      1.0        1
     134.142      254.124      1.0        1
     121.647      246.353      1.0        1
     109.139      238.663      1.0        1
      96.620      231.056      1.0        1
      84.089      223.534      1.0        1
      71.549      216.099      1.0        1
      59.000      208.755      1.0        1
      46.441      201.504      1.0        1
      33.874      194.347      1.0        1
      21.300      187.288      1.0        1
       8.719      180.328      1.0        1
     356.131      173.470      1.0        1
     343.536      166.717      1.0        1
     330.936      160.069      1.0        1
     318.331      153.530      1.0        1
     305.722      147.102      1.0        1
     293.107      140.787      1.0        1
     280.489      134.587      1.0        1
     267.867      128.503      1.0        1
     255.242      122.539      1.0        1
     242.613      116.695      1.0        1
     229.982      110.974      1.0        1
     217.348      105.378      1.0        1
     204.712       99.908      1.0        1
     192.074       94.566      1.0        1
     179.434       89.354      1.0        1
     166.793       84.275      1.0        1
     154.150       79.328      1.0        1
     141.506       74.517      1.0        1
     128.860       69.842      1.0        1
     116.214       65.305      1.0        1
     103.566       60.908      1.0        1
      90.918       56.652      1.0        1
      78.270       52.538      1.0        1
      65.620       48.568      1.0        1
      52.970       44.743      1.0        1
      40.320       41.065      1.0        1
      27.669       37.534      1.0        1
      15.019       34.152      1.0        1
       2.367       30.920      1.0        1
     349.716       27.838      1.0        1
     337.065       24.909      1.0        1
     324.413       22.132      1.0        1
     311.761       19.509      1.0        1
     299.109       17.041      1.0        1
     286.457       14.728      1.0        1
     273.805       12.572      1.0        1
     261.153       10.572      1.0        1
     248.501        8.730      1.0        1
     235.849        7.046      1.0        1
     223.197        5.520      1.0        1
     210.545        4.154      1.0        1
     197.893        2.948      1.0        1
     185.241        1.902      1.0        1
     172.589        1.016      1.0        1
     159.937        0.290      1.0        1
     147.285        0.000      1.0        1
     134.633        0.000      1.0        0
     121.981        0.000      1.0        0
       0.000        0.000      1.0        0
