# Pbox    400.00  53 4095  0.0     0    1.0000 15.47982     6
# VJ4.2  pw (us)  pwr  pwrf  dres  dmf  dcyc   B1max (kHz)  Stype
# ---------------------------------------------------------------
# Pxsim 0.0004000 14848.3723 0.000 311688.0 0.0000000 0.0000000 0.00
# data: pw (s) B1max (Hz) status sw (Hz) T1 (s)   T2 (s) RDC (Hz)
# ---------------------------------------------------------------
# Pbox.inp data :
# ~~~~~~~~~~~~~~~~~~~~~~~~~~~Waves~~~~~~~~~~~~~~~~~~~~~~~~~~~~~~~~~~
#   shape   bw(/pw)   ofs  st  ph  fla  trev  d1  d2   d0   wrp  php
# ~~~~~~~~~~~~~~~~~~~~~~~~~~~~~~~~~~~~~~~~~~~~~~~~~~~~~~~~~~~~~~~~~~
# { wurst2i -51948/0.0004 }
#
# type      = r          mod       = n          dres      = n         
# steps     = n          stepsize  = n          attn      = i         
# refofs    = n          wrap      = n          sfrq      = n         
# sucyc     = d          reps      = 2          header    = y         
# bscor     = n          pad1      = n          pad2      = n         
# bsim      = n          T1        = n          T2        = n         
# rdc       = n          dcyc      = n          sw        = n         
#
# RF Calibration Data :  ref_pwr   = 57         ref_pw90  = 10.19
# ~~~~~~~~~~~~~~~~~~~~~
###
# ------------------- Shape data ------------------
# pwtot      = 0.0004000 (total pw, s)
# power      = 53 (power level, dB)
# pwrf       = 4095 (fine power)
# B1max      = 15.4798 (B1max, kHz)
# B1rms      = 9.0787 (B1[RMS], kHz)
# nptot      = 320 (total number of steps)
# stepsize   = 1.25 (length of a single step, us)
# maxamp     = 982.2 (max amplitude)
# ------------------------------------------------- 
#      phase      amplitude   length     gate 
# ------------------------------------------------- 
        0.00      1023.00      0.0        0
       0.000        0.000      1.0        0
     348.629        0.000      1.0        0
     336.904        0.000      1.0        0
     325.179        0.000      1.0        1
     313.454        0.523      1.0        1
     301.729        1.380      1.0        1
     290.004        2.426      1.0        1
     278.279        3.661      1.0        1
     266.554        5.084      1.0        1
     254.829        6.696      1.0        1
     243.104        8.496      1.0        1
     231.379       10.482      1.0        1
     219.654       12.655      1.0        1
     207.930       15.012      1.0        1
     196.205       17.554      1.0        1
     184.480       20.280      1.0        1
     172.756       23.187      1.0        1
     161.031       26.276      1.0        1
     149.307       29.544      1.0        1
     137.583       32.992      1.0        1
     125.859       36.617      1.0        1
     114.135       40.417      1.0        1
     102.412       44.392      1.0        1
      90.689       48.540      1.0        1
      78.966       52.859      1.0        1
      67.245       57.348      1.0        1
      55.524       62.005      1.0        1
      43.803       66.828      1.0        1
      32.084       71.815      1.0        1
      20.366       76.965      1.0        1
       8.649       82.274      1.0        1
     356.933       87.742      1.0        1
     345.219       93.366      1.0        1
     333.507       99.144      1.0        1
     321.797      105.074      1.0        1
     310.089      111.153      1.0        1
     298.384      117.379      1.0        1
     286.681      123.749      1.0        1
     274.982      130.262      1.0        1
     263.286      136.914      1.0        1
     251.594      143.704      1.0        1
     239.906      150.627      1.0        1
     228.223      157.683      1.0        1
     216.546      164.867      1.0        1
     204.873      172.178      1.0        1
     193.207      179.612      1.0        1
     181.548      187.166      1.0        1
     169.895      194.838      1.0        1
     158.251      202.625      1.0        1
     146.614      210.523      1.0        1
     134.987      218.529      1.0        1
     123.370      226.641      1.0        1
     111.763      234.855      1.0        1
     100.168      243.168      1.0        1
      88.585      251.577      1.0        1
      77.014      260.079      1.0        1
      65.458      268.669      1.0        1
      53.916      277.346      1.0        1
      42.390      286.105      1.0        1
      30.881      294.944      1.0        1
      19.390      303.858      1.0        1
       7.917      312.844      1.0        1
     356.465      321.899      1.0        1
     345.033      331.019      1.0        1
     333.624      340.201      1.0        1
     322.239      349.442      1.0        1
     310.879      358.736      1.0        1
     299.545      368.082      1.0        1
     288.238      377.475      1.0        1
     276.961      386.912      1.0        1
     265.715      396.389      1.0        1
     254.500      405.902      1.0        1
     243.319      415.448      1.0        1
     232.173      425.023      1.0        1
     221.065      434.623      1.0        1
     209.994      444.245      1.0        1
     198.964      453.884      1.0        1
     187.976      463.538      1.0        1
     177.032      473.201      1.0        1
     166.134      482.872      1.0        1
     155.283      492.545      1.0        1
     144.482      502.217      1.0        1
     133.732      511.885      1.0        1
     123.036      521.544      1.0        1
     112.395      531.191      1.0        1
     101.811      540.822      1.0        1
      91.288      550.433      1.0        1
      80.826      560.021      1.0        1
      70.428      569.582      1.0        1
      60.096      579.112      1.0        1
      49.832      588.608      1.0        1
      39.640      598.065      1.0        1
      29.520      607.480      1.0        1
      19.475      616.850      1.0        1
       9.508      626.171      1.0        1
     359.621      635.439      1.0        1
     349.816      644.650      1.0        1
     340.096      653.802      1.0        1
     330.462      662.890      1.0        1
     320.919      671.911      1.0        1
     311.467      680.862      1.0        1
     302.110      689.739      1.0        1
     292.850      698.538      1.0        1
     283.689      707.256      1.0        1
     274.631      715.890      1.0        1
     265.676      724.437      1.0        1
     256.829      732.892      1.0        1
     248.091      741.254      1.0        1
     239.465      749.518      1.0        1
     230.953      757.681      1.0        1
     222.558      765.741      1.0        1
     214.283      773.693      1.0        1
     206.130      781.536      1.0        1
     198.101      789.265      1.0        1
     190.199      796.879      1.0        1
     182.426      804.374      1.0        1
     174.785      811.746      1.0        1
     167.279      818.994      1.0        1
     159.909      826.114      1.0        1
     152.678      833.104      1.0        1
     145.588      839.961      1.0        1
     138.642      846.682      1.0        1
     131.842      853.265      1.0        1
     125.190      859.707      1.0        1
     118.689      866.006      1.0        1
     112.340      872.159      1.0        1
     106.147      878.163      1.0        1
     100.110      884.017      1.0        1
      94.232      889.719      1.0        1
      88.516      895.265      1.0        1
      82.963      900.654      1.0        1
      77.575      905.884      1.0        1
      72.354      910.952      1.0        1
      67.303      915.857      1.0        1
      62.422      920.597      1.0        1
      57.713      925.171      1.0        1
      53.179      929.575      1.0        1
      48.821      933.809      1.0        1
      44.640      937.870      1.0        1
      40.638      941.758      1.0        1
      36.817      945.471      1.0        1
      33.178      949.007      1.0        1
      29.723      952.366      1.0        1
      26.452      955.544      1.0        1
      23.366      958.543      1.0        1
      20.468      961.359      1.0        1
      17.758      963.993      1.0        1
      15.238      966.443      1.0        1
      12.907      968.708      1.0        1
      10.768      970.788      1.0        1
       8.820      972.681      1.0        1
       7.065      974.386      1.0        1
       5.503      975.904      1.0        1
       4.135      977.234      1.0        1
       2.962      978.374      1.0        1
       1.983      979.325      1.0        1
       1.200      980.087      1.0        1
       0.612      980.658      1.0        1
       0.221      981.039      1.0        1
       0.025      981.230      2.0        1
       0.221      981.039      1.0        1
       0.612      980.658      1.0        1
       1.200      980.087      1.0        1
       1.983      979.325      1.0        1
       2.962      978.374      1.0        1
       4.135      977.234      1.0        1
       5.503      975.904      1.0        1
       7.065      974.386      1.0        1
       8.820      972.681      1.0        1
      10.768      970.788      1.0        1
      12.907      968.708      1.0        1
      15.238      966.443      1.0        1
      17.758      963.993      1.0        1
      20.468      961.359      1.0        1
      23.366      958.543      1.0        1
      26.452      955.544      1.0        1
      29.723      952.366      1.0        1
      33.178      949.007      1.0        1
      36.817      945.471      1.0        1
      40.638      941.758      1.0        1
      44.640      937.870      1.0        1
      48.821      933.809      1.0        1
      53.179      929.575      1.0        1
      57.713      925.171      1.0        1
      62.422      920.597      1.0        1
      67.303      915.857      1.0        1
      72.354      910.952      1.0        1
      77.575      905.884      1.0        1
      82.963      900.654      1.0        1
      88.516      895.265      1.0        1
      94.232      889.719      1.0        1
     100.110      884.017      1.0        1
     106.147      878.163      1.0        1
     112.340      872.159      1.0        1
     118.689      866.006      1.0        1
     125.190      859.707      1.0        1
     131.842      853.265      1.0        1
     138.642      846.682      1.0        1
     145.588      839.961      1.0        1
     152.678      833.104      1.0        1
     159.909      826.114      1.0        1
     167.279      818.994      1.0        1
     174.785      811.746      1.0        1
     182.426      804.374      1.0        1
     190.199      796.879      1.0        1
     198.101      789.265      1.0        1
     206.130      781.536      1.0        1
     214.283      773.693      1.0        1
     222.558      765.741      1.0        1
     230.953      757.681      1.0        1
     239.465      749.518      1.0        1
     248.091      741.254      1.0        1
     256.829      732.892      1.0        1
     265.676      724.437      1.0        1
     274.631      715.890      1.0        1
     283.689      707.256      1.0        1
     292.850      698.538      1.0        1
     302.110      689.739      1.0        1
     311.467      680.862      1.0        1
     320.919      671.911      1.0        1
     330.462      662.890      1.0        1
     340.096      653.802      1.0        1
     349.816      644.650      1.0        1
     359.621      635.439      1.0        1
       9.508      626.171      1.0        1
      19.475      616.850      1.0        1
      29.520      607.480      1.0        1
      39.640      598.065      1.0        1
      49.832      588.608      1.0        1
      60.096      579.112      1.0        1
      70.428      569.582      1.0        1
      80.826      560.021      1.0        1
      91.288      550.433      1.0        1
     101.811      540.822      1.0        1
     112.395      531.191      1.0        1
     123.036      521.544      1.0        1
     133.732      511.885      1.0        1
     144.482      502.217      1.0        1
     155.283      492.545      1.0        1
     166.134      482.872      1.0        1
     177.032      473.201      1.0        1
     187.976      463.538      1.0        1
     198.964      453.884      1.0        1
     209.994      444.245      1.0        1
     221.065      434.623      1.0        1
     232.173      425.023      1.0        1
     243.319      415.448      1.0        1
     254.500      405.902      1.0        1
     265.715      396.389      1.0        1
     276.961      386.912      1.0        1
     288.238      377.475      1.0        1
     299.545      368.082      1.0        1
     310.879      358.736      1.0        1
     322.239      349.442      1.0        1
     333.624      340.201      1.0        1
     345.033      331.019      1.0        1
     356.465      321.899      1.0        1
       7.917      312.844      1.0        1
      19.390      303.858      1.0        1
      30.881      294.944      1.0        1
      42.390      286.105      1.0        1
      53.916      277.346      1.0        1
      65.458      268.669      1.0        1
      77.014      260.079      1.0        1
      88.585      251.577      1.0        1
     100.168      243.168      1.0        1
     111.763      234.855      1.0        1
     123.370      226.641      1.0        1
     134.987      218.529      1.0        1
     146.614      210.523      1.0        1
     158.251      202.625      1.0        1
     169.895      194.838      1.0        1
     181.548      187.166      1.0        1
     193.207      179.612      1.0        1
     204.873      172.178      1.0        1
     216.546      164.867      1.0        1
     228.223      157.683      1.0        1
     239.906      150.627      1.0        1
     251.594      143.704      1.0        1
     263.286      136.914      1.0        1
     274.982      130.262      1.0        1
     286.681      123.749      1.0        1
     298.384      117.379      1.0        1
     310.089      111.153      1.0        1
     321.797      105.074      1.0        1
     333.507       99.144      1.0        1
     345.219       93.366      1.0        1
     356.933       87.742      1.0        1
       8.649       82.274      1.0        1
      20.366       76.965      1.0        1
      32.084       71.815      1.0        1
      43.803       66.828      1.0        1
      55.524       62.005      1.0        1
      67.245       57.348      1.0        1
      78.966       52.859      1.0        1
      90.689       48.540      1.0        1
     102.412       44.392      1.0        1
     114.135       40.417      1.0        1
     125.859       36.617      1.0        1
     137.583       32.992      1.0        1
     149.307       29.544      1.0        1
     161.031       26.276      1.0        1
     172.756       23.187      1.0        1
     184.480       20.280      1.0        1
     196.205       17.554      1.0        1
     207.930       15.012      1.0        1
     219.654       12.655      1.0        1
     231.379       10.482      1.0        1
     243.104        8.496      1.0        1
     254.829        6.696      1.0        1
     266.554        5.084      1.0        1
     278.279        3.661      1.0        1
     290.004        2.426      1.0        1
     301.729        1.380      1.0        1
     313.454        0.523      1.0        1
     325.179        0.000      1.0        1
     336.904        0.000      1.0        0
     348.629        0.000      1.0        0
       0.000        0.000      1.0        0
